acce_x,acce_y,acce_z,gyro_x,gyro_y,gyro_z
0.22,-0.02,1.09,-8.15,2.95,-3.79
0.2,-0.02,1.09,-6.56,5.44,-3.28
0.19,-0.02,1.07,-6.81,7.47,-2.26
0.17,-0.03,1.07,-6.26,5.04,-0.56
0.14,-0.03,1.06,-5.34,-2.27,1.27
0.14,-0.03,1.07,-0.99,-6.79,2.89
0.18,-0.02,1.04,-2.2,-5.53,3.73
0.22,-0.01,1.02,-2.96,-4.78,2.92
0.25,-0.0,1.03,-2.84,-2.14,1.08
0.26,0.0,1.03,-1.48,0.67,-0.92
0.26,-0.0,1.04,-1.74,2.98,-1.8
0.23,-0.01,1.01,-3.21,4.02,-1.94
0.23,-0.01,1.0,-4.79,3.63,-2.44
0.23,-0.02,1.01,-5.33,0.79,-2.02
0.19,-0.01,1.02,-4.17,-2.69,-1.1
0.18,-0.02,1.03,-3.57,-4.7,-1.21
0.2,-0.01,1.04,-4.11,-4.24,-1.54
0.22,-0.0,1.04,-4.53,-4.92,-1.54
0.23,0.0,1.05,-3.21,-4.35,-2.05
0.24,-0.0,1.07,-3.11,1.16,-2.5
0.24,0.01,1.09,-4.03,4.29,-2.38
0.22,0.01,1.07,-3.91,0.35,-2.95
0.21,-0.01,1.07,-3.69,1.83,-3.31
0.21,-0.01,1.08,-2.98,2.09,-3.59
0.19,-0.01,1.06,-3.25,2.21,-3.05
0.18,-0.01,1.07,-4.2,2.06,-2.03
0.18,-0.01,1.04,-5.02,0.76,-1.66
0.17,-0.01,1.03,-5.66,-0.7,-1.28
0.16,-0.01,1.02,-6.21,-3.77,-0.41
0.13,-0.02,1.01,-6.53,-7.88,1.31
0.1,-0.02,1.02,-7.08,-7.02,3.71
0.12,-0.02,1.04,-8.43,0.73,4.63
0.19,-0.01,1.07,-6.12,6.32,3.05
0.23,0.01,1.1,-3.02,10.5,2.0
0.22,-0.0,1.08,-2.78,10.87,1.53
0.21,-0.0,1.05,-2.23,5.82,0.41
0.21,-0.0,1.04,-1.47,0.08,-0.18
0.19,-0.01,1.03,-2.75,-3.6,1.62
0.15,-0.01,1.01,-3.8,-5.86,2.6
0.17,-0.01,1.0,-3.59,-2.63,2.56
0.19,0.0,1.02,-4.24,0.43,2.9
0.2,-0.01,1.0,-4.72,1.48,2.84
0.22,-0.0,1.01,-4.05,-0.55,1.37
0.22,-0.01,1.0,-3.57,-0.64,0.23
0.22,-0.01,1.01,-3.69,1.15,-1.04
0.22,-0.0,1.0,-4.85,0.61,-1.56
0.2,-0.01,0.99,-6.67,-1.1,-2.32
0.22,-0.0,0.98,-8.0,-0.79,-2.99
0.21,-0.01,0.98,-9.24,-0.82,-2.98
0.18,-0.01,0.98,-9.92,-2.37,-2.05
0.16,-0.01,1.01,-11.21,-3.57,-0.58
0.16,-0.02,1.02,-11.89,-4.26,-0.05
0.18,-0.01,1.06,-6.14,4.17,-1.76
0.22,-0.01,1.14,-4.2,6.03,-2.21
0.2,-0.02,1.16,-3.19,2.02,-2.23
0.18,-0.02,1.13,-2.96,0.64,-1.53
0.17,-0.02,1.11,-3.28,-1.62,1.02
0.15,-0.02,1.07,-4.06,-4.02,3.47
0.15,-0.03,1.06,-4.82,-4.11,4.7
0.18,-0.01,1.04,-5.95,-3.94,5.08
0.2,-0.01,1.03,-6.9,-3.83,4.37
0.23,-0.02,1.03,-6.4,-2.29,3.18
0.24,-0.01,1.05,-5.91,-0.26,1.89
0.27,-0.03,1.07,-3.36,0.92,-0.66
0.27,-0.03,1.1,-0.55,3.62,-2.23
0.25,-0.03,1.09,-2.02,4.32,-1.71
0.21,-0.01,1.03,-4.09,2.03,-0.98
0.2,-0.01,1.01,-5.62,-0.84,-0.32
0.18,-0.01,1.0,-6.73,-3.89,2.56
0.2,-0.02,1.04,-6.85,-4.4,2.55
0.24,-0.01,1.06,-6.38,-4.99,1.88
0.25,-0.02,1.08,-3.98,-5.1,0.12
0.27,-0.03,1.11,-1.31,0.32,-2.66
0.28,-0.02,1.12,-0.5,6.02,-4.37
0.25,-0.02,1.09,-2.64,7.51,-4.05
0.22,-0.01,1.04,-3.19,6.2,-3.47
0.19,-0.02,1.02,-4.32,2.79,-1.95
0.16,-0.02,1.0,-6.56,-0.85,0.35
0.16,-0.01,0.98,-7.91,-5.53,1.28
0.17,-0.02,0.98,-8.64,-9.77,2.09
0.2,-0.02,1.01,-8.7,-9.27,1.56
0.24,-0.02,1.05,-7.8,-5.53,-0.69
0.25,-0.02,1.07,-7.01,-3.82,-1.5
0.23,-0.02,1.1,-1.44,8.31,-3.33
0.23,-0.02,1.12,-0.09,7.36,-3.37
0.2,-0.02,1.08,-1.36,3.98,-2.61
0.19,-0.02,1.03,-2.35,-0.05,-2.49
0.18,-0.01,1.01,-3.74,-1.79,-0.76
0.17,-0.01,0.99,-5.79,-1.68,0.78
0.18,-0.01,0.98,-7.25,-4.69,1.51
0.19,-0.0,0.99,-7.5,-6.4,1.53
0.22,-0.01,1.02,-7.63,-4.95,0.79
0.23,-0.01,1.05,-5.79,-1.53,-0.38
0.25,-0.01,1.09,-4.44,1.34,-1.85
0.26,-0.01,1.09,-3.3,2.37,-2.9
0.23,-0.02,1.08,-2.35,5.36,-3.36
0.21,-0.02,1.06,-3.42,4.98,-3.01
0.18,-0.02,1.01,-4.18,-0.05,-1.86
0.15,-0.02,0.99,-7.31,-3.65,2.15
0.16,-0.02,0.99,-8.21,-2.98,3.42
0.2,-0.01,1.0,-7.83,-2.52,2.35
0.25,-0.01,1.04,-6.61,-0.9,0.37
0.27,-0.01,1.08,-5.97,1.15,-1.47
0.26,-0.0,1.06,-5.33,2.11,-2.05
0.23,-0.01,1.04,-5.4,3.5,-1.86
0.22,-0.02,1.03,-6.12,1.45,-1.69
0.2,-0.01,1.02,-6.84,-1.68,-1.21
0.2,-0.01,1.02,-8.21,-0.95,-0.55
0.21,-0.01,1.04,-7.44,-1.83,-0.64
0.2,-0.01,1.04,-6.17,-3.19,0.47
0.18,-0.01,1.05,-6.75,-3.19,1.88
0.18,-0.01,1.03,-4.47,-4.56,1.24
0.21,-0.02,1.09,-1.74,-4.09,-0.37
0.24,-0.02,1.1,-2.23,2.93,-1.77
0.22,-0.01,1.05,-2.93,3.77,-1.86
0.2,-0.0,1.02,-5.5,1.73,-1.37
0.19,-0.0,0.99,-7.08,-3.76,-0.84
0.18,-0.01,0.99,-9.42,-8.12,0.05
0.18,0.0,1.0,-10.7,-9.19,1.16
0.18,0.01,1.03,-11.19,-10.44,2.31
0.19,0.0,1.06,-9.56,-7.94,2.73
0.21,-0.01,1.1,-8.05,0.49,1.88
0.26,-0.01,1.14,-5.57,3.79,0.79
0.23,-0.02,1.13,-3.36,5.18,-0.09
0.21,-0.02,1.08,-4.72,6.35,0.41
0.17,-0.02,1.02,-5.15,-0.56,2.15
0.14,-0.03,1.0,-4.9,-8.6,3.77
0.14,-0.02,1.0,-6.15,-9.74,5.24
0.17,-0.02,1.01,-6.12,-7.11,5.16
0.21,-0.02,1.02,-6.06,-1.48,3.11
0.26,-0.02,1.05,-5.04,0.17,1.83
0.25,-0.01,1.05,-3.71,2.24,0.46
0.26,-0.02,1.05,-3.47,3.1,-0.7
0.25,-0.01,1.03,-4.63,3.62,-1.76
0.25,-0.01,0.99,-6.44,4.18,-1.62
0.21,-0.01,0.97,-8.92,0.9,-0.53
0.17,-0.03,0.96,-8.38,-3.73,0.15
0.16,-0.03,0.99,-8.98,-6.78,1.59
0.17,-0.03,1.0,-8.56,-6.61,2.11
0.2,-0.02,1.03,-7.6,-4.56,2.06
0.23,-0.02,1.07,-7.37,0.27,2.12
0.23,-0.02,1.07,-6.76,3.24,1.13
0.25,-0.03,1.07,-4.76,4.81,-0.85
0.26,-0.03,1.08,-4.34,6.12,-2.46
0.24,-0.03,1.07,-5.18,6.53,-2.24
0.22,-0.04,1.07,-6.17,6.63,-1.33
0.18,-0.04,1.04,-7.66,3.51,1.53
0.14,-0.03,1.02,-8.7,-1.22,3.68
0.13,-0.04,1.03,-7.59,-4.89,5.36
0.16,-0.04,1.06,-6.64,-1.59,4.93
0.23,-0.03,1.1,-3.69,4.63,3.51
0.27,-0.03,1.13,-1.73,4.24,0.82
0.3,-0.03,1.12,0.12,3.82,-2.35
0.27,-0.03,1.09,-1.63,5.62,-3.27
0.25,-0.03,1.05,-3.22,4.55,-3.15
0.21,-0.04,1.04,-3.51,0.56,-2.38
0.19,-0.03,1.03,-4.81,-1.31,-0.14
0.16,-0.03,1.02,-6.78,-2.82,2.31
0.15,-0.03,1.0,-7.83,-5.01,4.44
0.17,-0.03,1.02,-6.32,-5.33,4.35
0.23,-0.03,1.06,-4.99,-3.71,2.41
0.27,-0.03,1.09,-3.8,-2.98,0.61
0.27,-0.03,1.09,1.28,2.73,-3.24
0.3,-0.02,1.1,2.05,5.16,-5.22
0.26,-0.02,1.06,-0.32,3.8,-5.01
0.23,-0.01,1.01,-2.6,1.22,-3.95
0.2,-0.01,0.99,-5.44,-1.76,-1.8
0.17,-0.01,0.98,-8.76,-3.82,0.35
0.18,-0.01,0.99,-9.83,-4.72,1.76
0.2,-0.02,1.03,-8.66,-4.79,2.02
0.21,-0.03,1.07,-5.65,-3.83,0.61
0.25,-0.03,1.12,-3.37,-1.24,-1.44
0.27,-0.04,1.12,-1.56,2.4,-2.98
0.25,-0.03,1.1,-1.44,3.91,-3.63
0.22,-0.03,1.05,-2.02,3.15,-2.89
0.19,-0.03,1.02,-3.08,0.87,-1.25
0.16,-0.03,1.0,-5.21,0.67,1.01
0.16,-0.03,1.0,-6.76,-0.05,1.98
0.2,-0.03,1.01,-5.08,-1.63,1.47
0.24,-0.03,1.07,-4.21,-0.4,0.08
0.25,-0.02,1.07,-4.12,-0.17,-0.85
0.25,-0.02,1.06,-4.98,-0.05,-1.54
0.24,-0.01,1.03,-4.96,0.02,-1.45
0.22,-0.01,1.03,-4.92,0.31,-0.87
0.21,-0.02,1.02,-4.7,-0.69,-1.16
0.2,-0.03,1.04,-3.82,-0.69,-0.44
0.19,-0.02,1.04,-4.4,-0.21,0.56
0.21,-0.02,1.04,-4.5,-0.08,0.96
0.21,-0.02,1.04,-3.82,-0.38,0.93
0.22,-0.02,1.04,-3.45,1.05,0.58
0.23,-0.02,1.03,-3.15,2.6,-0.43
0.24,-0.02,1.03,-2.6,0.47,-1.37
0.22,-0.02,1.02,-0.84,-3.19,-2.11
0.21,-0.02,1.03,-3.53,-0.2,-2.46
0.22,-0.01,1.01,-5.04,1.88,-2.53
0.22,-0.01,1.02,-5.59,3.91,-1.39
0.19,-0.01,1.04,-5.85,4.63,0.2
0.18,-0.01,1.04,-5.71,1.25,0.41
0.21,-0.02,1.05,-4.84,-2.27,-0.27
0.22,-0.01,1.05,-5.16,-3.31,-0.55
0.23,-0.02,1.06,-4.12,-2.64,-1.76
0.25,-0.02,1.08,-3.25,-1.24,-3.24
0.24,-0.01,1.07,-3.98,1.69,-2.85
0.22,-0.01,1.03,-4.85,1.18,-2.38
0.2,-0.01,1.02,-5.4,-0.73,-1.57
0.21,-0.0,1.01,-6.34,0.95,-1.02
0.22,0.0,1.03,-7.28,0.61,-1.05
0.23,-0.0,1.03,-6.2,-0.99,-1.54
0.23,-0.01,1.08,-2.61,1.53,-3.66
0.22,-0.01,1.07,-2.66,1.42,-3.28
0.2,-0.02,1.04,-3.34,1.73,-2.41
0.2,-0.02,1.01,-3.28,-0.32,-2.46
0.19,-0.02,1.01,-3.18,-0.7,-2.06
0.2,-0.02,1.01,-5.11,-2.29,-0.76
0.16,-0.03,1.0,-6.73,-0.46,0.47
0.19,-0.02,1.03,-6.29,-0.27,0.55
0.21,-0.02,1.02,-7.22,-0.53,0.12
0.23,-0.02,0.99,-8.43,4.6,-1.3
0.26,-0.01,1.0,-8.21,6.81,-2.63
0.25,-0.01,1.01,-8.08,3.48,-3.36
0.23,-0.01,1.01,-8.24,-0.41,-3.79
0.22,-0.01,1.02,-11.34,3.05,-3.85
0.24,-0.01,0.99,-14.46,3.22,-4.26
0.24,-0.01,1.01,-12.95,2.78,-6.03
0.22,-0.03,1.06,-11.34,7.36,-6.4
0.23,-0.03,1.07,-8.18,8.34,-6.63
0.19,-0.03,1.08,-6.7,4.08,-5.68
0.18,-0.03,1.06,-6.63,3.79,-4.52
0.17,-0.03,1.03,-9.51,6.24,-2.96
0.19,0.0,1.07,-6.23,3.36,-3.08
0.18,-0.02,1.07,-3.95,-4.95,-3.37
0.18,-0.02,1.08,-3.4,-5.53,-3.79
0.21,-0.01,1.06,-4.47,-1.68,-3.68
0.22,-0.02,1.07,-3.65,0.17,-3.56
0.21,-0.01,1.05,-2.99,4.21,-4.52
0.23,-0.02,1.05,-2.63,7.5,-5.34
0.22,-0.02,1.05,-6.06,8.38,-4.23
0.21,-0.02,1.03,-2.44,7.98,-5.37
0.21,-0.02,1.03,-4.02,-0.02,-6.05
0.2,-0.01,1.01,-3.08,-0.67,-7.74
0.24,-0.0,1.04,-4.53,-0.06,-8.89
0.23,-0.01,1.05,-6.0,-1.18,-7.16
0.18,-0.01,1.05,-8.55,-1.45,-5.34
0.18,-0.0,1.04,-9.59,-2.09,-4.32
0.17,-0.01,1.05,-10.99,-2.84,-3.47
0.18,-0.02,1.06,-10.89,-0.52,-3.27
0.18,-0.03,1.08,-7.25,-2.4,-3.62
0.17,-0.04,1.12,-5.74,-4.27,-2.89
0.15,-0.04,1.12,-5.11,-3.07,-2.53
0.16,-0.04,1.1,-4.53,-3.3,-2.79
0.18,-0.04,1.08,-4.64,-2.32,-2.6
0.18,-0.04,1.09,-3.47,-1.54,-0.56
0.16,-0.05,1.08,-2.12,-0.6,-0.2
0.17,-0.05,1.08,-1.69,0.37,-0.5
0.2,-0.04,1.07,-1.62,-0.93,-1.21
0.2,-0.04,1.07,-0.43,-1.66,-0.76
0.18,-0.04,1.07,-0.58,0.61,-0.26
0.19,-0.04,1.07,-0.43,3.42,0.09
0.19,-0.03,1.05,-0.5,2.12,0.53
0.19,-0.03,1.02,-0.9,0.09,0.81
0.2,-0.02,1.03,-1.4,-2.18,0.46
0.22,-0.02,1.03,-1.4,-4.21,-0.56
0.23,-0.02,1.04,-1.54,-2.87,-0.79
0.22,-0.02,1.04,-2.38,-2.14,-0.55
0.21,-0.01,1.03,-1.56,-2.75,-1.01
0.22,-0.01,1.03,-2.53,-4.43,-1.63
0.23,-0.0,1.02,-2.43,-5.25,-2.5
0.23,-0.01,1.04,-3.11,-2.47,-2.26
0.22,-0.02,1.02,-4.11,-0.49,-1.66
0.21,-0.01,1.03,-4.15,-0.29,-1.69
0.21,-0.02,1.03,-4.93,-1.4,-0.93
0.19,-0.02,1.03,-5.19,-2.15,-0.2
0.2,-0.02,1.03,-4.32,-2.27,0.05
0.21,-0.01,1.04,-3.76,-1.66,-0.24
0.23,-0.02,1.06,-3.91,-0.46,-0.15
0.23,-0.01,1.03,-4.11,1.31,-0.44
0.23,-0.01,1.03,-3.88,1.51,-1.33
0.23,-0.01,1.02,-3.59,0.09,-1.62
0.22,-0.02,1.03,-3.95,0.29,-0.99
0.18,-0.01,1.0,-5.68,0.7,0.89
0.18,-0.01,0.98,-6.79,-1.82,1.66
0.19,-0.0,0.99,-5.85,-3.07,0.55
0.24,-0.01,1.02,-6.31,-1.54,0.12
0.23,0.01,1.04,-6.53,-1.94,-0.4
0.23,-0.01,1.04,-7.08,-0.08,-0.56
0.23,-0.01,1.05,-6.14,0.93,-1.21
0.22,-0.01,1.05,-4.55,0.6,-1.5
0.21,-0.01,1.03,-5.08,0.11,-0.73
0.19,-0.01,1.01,-5.34,-0.66,-0.67
0.2,-0.01,1.0,-6.4,-1.48,-0.5
0.2,-0.0,1.0,-8.0,-1.34,-0.23
0.21,-0.0,1.0,-8.69,-0.82,0.32
0.22,-0.01,1.02,-8.4,-1.1,0.4
0.23,-0.0,1.06,-7.77,-1.79,-0.2
0.22,-0.01,1.07,-6.92,-1.02,-0.14
0.22,-0.01,1.06,-6.17,-1.34,-0.84
0.23,-0.01,1.08,-3.5,0.26,-3.76
0.24,-0.01,1.07,-4.31,0.85,-3.15
0.21,-0.0,1.04,-5.1,1.1,-2.02
0.19,-0.01,1.04,-5.68,-1.15,-1.3
0.18,-0.0,1.02,-6.76,-3.1,0.56
0.17,-0.01,1.01,-8.32,-1.86,2.05
0.18,-0.01,1.02,-7.98,-4.21,2.63
0.2,-0.02,1.06,-6.75,-5.92,1.74
0.23,-0.03,1.07,-5.68,-2.49,1.15
0.24,-0.02,1.1,-4.67,1.11,0.56
0.23,-0.03,1.09,-3.34,1.15,-0.41
0.24,-0.03,1.08,-2.34,2.08,-1.65
0.24,-0.03,1.06,-2.73,2.72,-1.94
0.23,-0.03,1.03,-3.47,3.31,-1.27
0.2,-0.03,1.02,-4.67,2.17,-0.14
0.19,-0.03,1.0,-5.65,0.69,1.34
0.19,-0.03,1.01,-6.98,-2.85,2.06
0.23,-0.01,1.02,-6.95,-4.78,1.63
0.25,0.0,1.04,-7.4,-5.18,0.55
0.28,0.0,1.05,-5.39,-4.66,-2.64
0.3,-0.01,1.08,-4.47,-1.15,-5.31
0.29,-0.02,1.09,-4.73,2.67,-5.44
0.22,-0.02,1.07,-5.4,5.1,-3.92
0.18,-0.03,1.02,-6.79,4.26,-2.96
0.17,-0.03,1.02,-6.64,0.75,-1.28
0.13,-0.04,1.03,-6.17,-0.87,1.6
0.13,-0.04,1.05,-5.68,-1.33,3.54
0.16,-0.03,1.06,-4.89,-3.42,4.06
0.2,-0.02,1.06,-4.24,-3.28,3.53
0.23,-0.01,1.06,-3.1,-1.47,2.09
0.27,-0.01,1.08,-2.09,1.73,-0.11
0.27,-0.01,1.06,-2.08,5.02,-0.72
0.24,-0.01,1.04,-4.09,4.43,-0.23
0.2,0.0,0.97,-6.05,4.12,0.73
0.19,0.0,0.95,-8.56,2.03,1.16
0.21,-0.0,0.95,-10.34,-0.89,0.66
0.22,-0.01,0.99,-10.72,-1.28,-0.26
0.24,-0.01,1.01,-10.73,1.89,-1.22
0.24,-0.02,1.04,-10.27,6.31,-2.12
0.22,-0.02,1.04,-9.24,8.4,-2.34
0.2,-0.03,1.05,-7.89,11.08,-1.76
0.18,-0.03,1.04,-9.01,8.06,-0.69
0.15,-0.04,1.01,-8.12,8.64,0.29
0.16,-0.04,1.01,-9.82,6.32,2.11
0.13,-0.04,1.01,-10.55,0.76,2.84
0.15,-0.03,1.04,-10.31,-2.72,2.78
0.17,-0.03,1.07,-10.09,-2.98,2.7
0.21,-0.04,1.09,-7.85,1.56,1.76
0.24,-0.03,1.15,-3.44,12.64,-0.61
0.26,-0.02,1.15,-2.78,10.4,-1.37
0.25,-0.02,1.12,-3.1,6.27,-1.65
0.24,-0.02,1.07,-4.24,3.74,-1.08
0.22,-0.01,1.04,-5.34,-0.96,-0.58
0.24,-0.02,1.02,-5.34,-4.67,-1.44
0.25,-0.02,1.01,-6.18,-4.52,-2.26
0.26,-0.02,1.0,-6.85,-6.67,-2.23
0.23,-0.02,1.0,-6.29,-6.32,-2.82
0.25,-0.02,1.01,-7.54,-3.22,-3.34
0.26,-0.02,1.01,-8.0,-1.89,-3.42
0.23,-0.03,1.02,-8.18,-1.98,-3.77
0.23,-0.02,1.03,-8.15,-1.31,-3.94
0.23,-0.03,1.07,-6.0,-0.14,-4.99
0.23,-0.04,1.1,-5.4,0.09,-4.75
0.2,-0.04,1.09,-3.59,-0.89,-5.33
0.19,-0.04,1.11,-2.84,1.04,-4.37
0.17,-0.03,1.07,-3.39,1.79,-2.43
0.14,-0.03,1.05,-3.44,-0.63,-1.5
0.16,-0.04,1.04,-3.39,-0.63,-1.07
0.16,-0.03,1.02,-4.85,0.17,0.6
0.15,-0.04,1.01,-6.0,-1.82,2.05
0.16,-0.03,1.03,-4.99,-2.17,2.44
0.18,-0.03,1.04,-5.08,-0.2,3.07
0.19,-0.02,1.04,-3.86,0.21,2.43
0.23,-0.02,1.06,-2.32,-0.2,1.5
0.25,-0.01,1.07,-1.73,-2.35,-0.47
0.28,-0.0,1.05,-0.66,-4.85,-3.42
0.26,-0.01,1.03,-1.54,-6.31,-4.34
0.22,-0.02,1.0,-4.24,-9.1,-0.79
0.15,-0.01,0.97,-4.61,-8.7,0.55
0.16,-0.02,0.99,-3.69,-8.69,1.76
0.17,-0.03,1.05,-2.6,-3.95,2.93
0.17,-0.04,1.06,-1.94,0.89,3.74
0.18,-0.04,1.09,0.98,1.71,3.18
0.19,-0.04,1.09,1.71,4.53,3.04
0.2,-0.03,1.05,0.37,7.54,2.67
0.21,-0.03,1.02,-0.29,6.92,1.85
0.2,-0.02,0.98,-2.73,5.1,1.77
0.2,-0.02,0.97,-5.54,3.48,1.48
0.19,-0.02,0.96,-7.53,0.96,1.68
0.17,-0.01,0.99,-7.89,0.18,1.94
0.18,-0.02,1.03,-8.09,-1.05,2.08
0.17,-0.03,1.05,-7.19,-0.79,2.64
0.18,-0.02,1.08,-6.31,2.34,2.67
0.2,-0.02,1.1,-5.02,2.4,1.66
0.22,-0.02,1.12,-2.98,3.82,1.6
0.2,-0.02,1.12,-2.06,5.25,3.83
0.19,-0.02,1.08,-2.89,3.57,3.66
0.19,-0.02,1.04,-4.96,-0.79,4.35
0.18,-0.02,1.01,-5.98,1.94,3.85
0.19,-0.03,1.01,-6.03,-1.08,2.9
0.21,-0.03,0.99,-7.28,1.4,1.5
0.22,-0.04,0.98,-8.52,4.53,1.34
0.2,-0.03,0.98,-8.49,4.34,1.33
0.19,-0.03,1.02,-8.46,3.89,1.18
