acce_x,acce_y,acce_z,gyro_x,gyro_y,gyro_z
0.16,-0.1,1.04,-9.39,-1.79,0.34
0.15,-0.09,1.04,-10.0,-2.08,-0.32
0.15,-0.1,1.04,-10.26,-1.28,-0.5
0.13,-0.1,1.07,-8.95,-3.97,-0.9
0.14,-0.09,1.07,-7.39,-5.22,-1.11
0.15,-0.09,1.04,-6.4,-3.4,-1.97
0.13,-0.08,1.02,-7.3,-0.81,-1.97
0.1,-0.09,1.02,-8.98,-1.04,-0.96
0.1,-0.08,1.02,-11.21,-3.21,0.38
0.14,-0.11,1.09,-10.7,-11.44,0.27
0.16,-0.11,1.08,-8.47,-6.55,-0.52
0.16,-0.11,1.08,-8.29,-5.02,-0.87
0.15,-0.12,1.09,-8.43,-4.26,-1.11
0.14,-0.12,1.09,-7.62,-4.9,-0.76
0.14,-0.13,1.11,-6.7,-4.84,-0.67
0.14,-0.12,1.09,-5.57,-2.78,-0.44
0.13,-0.11,1.08,-6.26,-1.25,-0.52
0.11,-0.1,1.06,-7.71,-2.08,0.52
0.09,-0.11,1.09,-8.08,-4.6,2.41
0.13,-0.12,1.13,-6.53,-9.08,2.61
0.18,-0.12,1.12,-0.21,-4.14,1.83
0.17,-0.12,1.11,0.31,-4.92,0.98
0.17,-0.12,1.08,-0.7,-4.18,0.49
0.16,-0.11,1.06,-2.2,-0.32,0.89
0.13,-0.1,1.06,-4.05,-2.03,0.73
0.12,-0.11,1.07,-5.24,-3.88,1.88
0.12,-0.12,1.09,-5.01,-6.61,3.01
0.15,-0.13,1.12,-3.74,-4.64,3.42
0.14,-0.13,1.13,-1.56,-1.62,4.32
0.14,-0.12,1.12,0.53,-1.65,5.19
0.15,-0.12,1.11,-0.05,-3.59,5.89
0.17,-0.12,1.14,-1.65,-8.31,5.76
0.2,-0.1,1.16,1.45,-1.77,5.6
0.21,-0.1,1.15,3.01,0.56,5.11
0.2,-0.14,1.13,-0.61,2.11,4.37
0.23,-0.08,1.09,-0.02,4.85,2.96
0.2,-0.09,1.1,-0.29,4.35,1.85
0.18,-0.09,1.16,-1.73,-5.05,0.73
0.19,-0.11,1.2,-1.95,-8.09,0.89
0.2,-0.12,1.24,-0.43,-4.99,1.21
0.23,-0.12,1.25,2.98,-2.95,-0.76
0.24,-0.11,1.22,6.96,0.84,-3.44
0.2,-0.1,1.19,8.38,3.79,-4.08
0.16,-0.1,1.18,7.56,3.13,-3.5
0.15,-0.1,1.15,6.69,1.85,-2.26
0.16,-0.11,1.1,4.08,7.3,1.3
0.16,-0.1,1.06,4.37,8.41,1.97
0.15,-0.09,1.03,3.02,8.21,2.85
0.16,-0.1,1.04,2.05,-0.73,1.73
0.18,-0.08,1.0,1.82,-0.44,2.21
0.18,-0.09,0.98,4.76,2.27,0.56
0.17,-0.09,0.93,5.22,4.79,-0.2
0.17,-0.08,0.91,4.81,5.36,-0.87
0.17,-0.06,0.86,3.74,9.24,-0.72
0.18,-0.04,0.8,-1.79,9.8,1.22
0.17,-0.04,0.74,-5.54,3.59,-2.9
0.15,-0.02,0.69,-10.47,2.41,-2.96
0.12,-0.02,0.68,-11.95,-1.47,-4.93
0.12,-0.01,0.65,-13.01,-2.78,-7.18
0.1,-0.01,0.64,-14.69,-0.44,-7.45
0.07,-0.01,0.67,-16.58,-3.16,-6.29
0.07,-0.04,0.69,-17.62,-6.78,-4.78
0.1,-0.05,0.72,-19.51,-7.54,-3.1
0.08,-0.05,0.79,-20.96,-13.44,-1.62
0.12,-0.05,0.79,-20.75,-14.49,0.75
0.16,-0.06,0.8,-20.85,-14.46,1.62
0.19,-0.07,0.81,-23.45,-14.81,0.44
0.2,-0.09,0.83,-28.35,-0.98,-1.21
0.16,-0.09,0.85,-30.18,0.49,-2.63
0.15,-0.09,0.85,-29.47,3.83,-2.38
0.13,-0.1,0.86,-29.6,5.19,-2.08
0.1,-0.1,0.9,-31.76,-1.36,-1.94
0.1,-0.12,0.93,-34.08,-6.26,-1.24
0.1,-0.14,0.97,-35.39,-7.36,0.09
0.1,-0.14,1.0,-35.15,-12.03,0.41
0.11,-0.15,1.0,-34.47,-14.09,1.77
0.13,-0.17,1.03,-32.92,-12.32,2.92
0.17,-0.19,1.02,-29.91,-1.76,3.92
0.17,-0.2,1.0,-28.78,3.28,4.05
0.17,-0.19,0.99,-29.45,4.08,2.46
0.14,-0.19,0.97,-29.66,5.25,2.03
0.09,-0.17,0.91,-29.73,6.98,3.65
0.07,-0.17,0.89,-32.47,-0.02,5.82
0.11,-0.17,0.89,-36.34,-8.9,6.34
0.16,-0.18,0.93,-38.09,-11.5,5.4
0.18,-0.2,0.94,-38.21,-7.21,5.66
0.19,-0.22,0.95,-39.07,-2.61,5.79
0.23,-0.23,0.99,-38.76,-2.37,3.73
0.19,-0.25,0.96,-34.96,8.34,0.73
0.15,-0.25,0.93,-35.53,10.2,0.79
0.12,-0.25,0.89,-37.77,6.44,1.11
0.09,-0.24,0.86,-39.65,0.49,2.15
0.06,-0.23,0.83,-41.91,-6.12,3.56
0.07,-0.23,0.86,-44.69,-15.13,6.02
0.12,-0.26,0.89,-46.12,-19.25,8.92
0.19,-0.28,0.94,-46.24,-19.31,9.89
0.25,-0.32,1.0,-45.63,-20.35,7.47
0.3,-0.34,1.04,-42.37,-13.62,4.79
0.26,-0.33,1.0,-37.79,17.21,-1.07
0.12,-0.3,0.93,-37.56,18.66,-1.33
0.05,-0.29,0.89,-39.53,10.31,1.08
0.06,-0.29,0.88,-43.07,-3.6,3.56
0.09,-0.3,0.9,-46.63,-15.53,5.07
0.15,-0.34,0.98,-47.33,-19.11,6.15
0.18,-0.36,1.0,-47.07,-16.17,7.21
0.21,-0.4,1.03,-45.57,-11.16,7.08
0.24,-0.42,1.06,-43.76,-3.59,5.22
0.22,-0.43,1.08,-41.04,5.33,3.33
0.1,-0.38,1.0,-36.58,13.16,3.44
0.05,-0.36,0.89,-37.86,4.52,5.91
0.06,-0.36,0.9,-42.53,-10.2,9.05
0.12,-0.39,0.97,-46.11,-21.1,10.37
0.18,-0.4,1.01,-45.95,-18.52,11.53
0.21,-0.44,1.06,-46.27,-17.04,11.94
0.25,-0.46,1.11,-43.33,-14.21,10.12
0.29,-0.49,1.16,-36.35,-3.47,6.52
0.3,-0.5,1.15,-33.42,12.92,4.37
0.22,-0.5,1.11,-31.4,20.76,1.48
0.08,-0.47,0.96,-26.84,27.71,3.83
0.04,-0.45,0.85,-28.49,23.73,6.56
0.0,-0.41,0.81,-32.35,11.31,9.4
-0.01,-0.41,0.8,-35.33,-5.34,13.47
0.09,-0.43,0.81,-38.44,-21.31,15.98
0.2,-0.45,0.89,-39.88,-30.49,15.28
0.28,-0.47,0.95,-38.93,-28.69,12.7
0.35,-0.49,1.03,-36.43,-20.31,8.66
0.4,-0.51,1.07,-31.65,-7.08,3.04
0.39,-0.52,1.03,-28.44,12.58,-1.45
0.2,-0.5,0.91,-30.69,27.71,-6.73
0.14,-0.48,0.86,-32.35,28.31,-6.69
0.06,-0.48,0.81,-34.32,24.09,-4.14
0.03,-0.49,0.79,-39.15,8.92,-1.42
0.02,-0.49,0.82,-39.6,-10.31,0.47
0.07,-0.52,0.85,-42.69,-27.88,2.56
0.16,-0.54,0.94,-41.83,-31.98,2.61
0.18,-0.57,0.98,-37.95,-30.79,1.92
0.21,-0.57,1.01,-35.76,-29.79,0.7
0.22,-0.57,1.01,-32.6,-22.29,-0.08
0.22,-0.53,0.99,-31.65,-10.12,-0.08
0.24,-0.53,0.95,-32.02,-4.81,-0.85
0.23,-0.54,0.93,-34.29,-4.03,-2.31
0.18,-0.54,0.93,-36.32,-7.98,-3.18
0.12,-0.56,0.88,-39.15,-10.4,-0.82
0.12,-0.56,0.89,-43.3,-14.5,1.56
0.12,-0.57,0.98,-42.79,-19.6,2.78
0.15,-0.59,1.01,-40.27,-21.94,6.0
0.23,-0.6,1.07,-35.4,-22.78,5.68
0.3,-0.59,1.09,-28.5,-10.27,3.31
0.32,-0.59,1.04,-27.48,-0.61,0.92
0.27,-0.6,0.99,-27.56,7.76,-0.81
0.24,-0.61,0.93,-29.53,12.6,-1.8
0.19,-0.61,0.91,-31.3,15.97,-3.25
0.11,-0.6,0.86,-31.97,18.24,-2.03
0.04,-0.59,0.81,-35.28,12.23,2.53
0.06,-0.59,0.83,-36.98,-0.43,6.76
0.1,-0.62,0.9,-34.17,-11.19,9.95
0.21,-0.64,0.94,-29.88,-8.4,12.05
0.38,-0.67,0.92,-23.91,30.84,8.2
0.42,-0.68,0.86,-23.63,54.44,4.46
0.42,-0.68,0.77,-24.24,86.2,-2.0
0.34,-0.62,0.6,-31.79,100.43,-10.14
0.13,-0.55,0.44,-43.3,94.66,-18.23
-0.09,-0.51,0.41,-57.18,64.43,-17.36
-0.23,-0.53,0.5,-57.07,30.35,-13.05
-0.2,-0.59,0.68,-55.13,-8.67,-5.11
-0.05,-0.65,0.84,-49.79,-30.96,-1.18
0.12,-0.71,0.96,-34.21,-49.91,4.79
0.26,-0.68,0.99,-30.53,-42.23,7.24
0.4,-0.65,0.94,-30.06,-22.56,1.98
0.35,-0.65,0.87,-26.75,-7.86,-4.15
0.31,-0.62,0.82,-35.59,2.89,-8.12
0.23,-0.64,0.82,-41.15,10.95,-8.41
0.19,-0.67,0.84,-44.41,12.06,-8.58
0.14,-0.69,0.87,-42.87,4.92,-8.79
0.1,-0.71,0.88,-41.71,-3.19,-7.77
0.11,-0.72,0.93,-39.21,-6.06,-6.41
0.13,-0.73,0.95,-28.72,-13.77,-6.29
0.14,-0.73,0.95,-24.24,-11.95,-5.19
0.14,-0.74,0.94,-18.43,-9.88,-2.09
0.17,-0.74,0.85,-17.36,-8.69,1.16
0.21,-0.73,0.8,-17.5,-6.4,1.57
0.23,-0.74,0.73,-18.84,-1.34,0.85
0.23,-0.74,0.7,-21.4,4.58,0.17
0.22,-0.72,0.69,-23.65,10.53,-0.31
0.18,-0.72,0.69,-23.6,16.82,-0.82
0.16,-0.72,0.67,-25.21,15.53,-0.14
0.15,-0.72,0.74,-23.05,8.43,-2.11
0.15,-0.73,0.73,-20.99,4.46,-1.36
0.16,-0.71,0.72,-21.04,1.66,-0.46
0.16,-0.7,0.67,-21.6,-0.08,0.37
0.18,-0.7,0.64,-24.4,-2.37,0.95
0.2,-0.7,0.65,-26.99,-0.73,0.27
0.2,-0.72,0.67,-29.01,3.89,0.61
0.21,-0.74,0.69,-29.66,10.4,1.25
0.26,-0.75,0.68,-29.8,16.84,-0.24
0.27,-0.76,0.65,-29.98,19.62,-7.02
0.18,-0.77,0.64,-36.2,20.58,-17.39
0.11,-0.78,0.68,-37.79,24.92,-19.95
0.03,-0.77,0.71,-37.71,28.7,-19.98
-0.05,-0.77,0.71,-37.8,25.18,-16.82
-0.07,-0.78,0.78,-38.46,21.13,-13.25
-0.08,-0.8,0.83,-32.18,15.25,-9.97
-0.08,-0.82,0.88,-26.76,6.79,-5.48
-0.08,-0.82,0.89,-21.07,0.23,1.02
-0.04,-0.78,0.84,-17.37,-8.43,8.4
0.27,-0.8,0.82,-16.81,-34.72,0.55
0.34,-0.81,0.77,-13.89,-30.11,-6.12
0.33,-0.8,0.67,-14.53,-16.92,-8.32
0.3,-0.8,0.55,-20.08,0.26,-6.67
0.28,-0.79,0.47,-28.69,22.11,-5.1
0.23,-0.78,0.46,-35.22,34.18,-4.98
0.19,-0.75,0.46,-36.56,42.4,-4.72
0.11,-0.72,0.47,-34.7,43.39,-2.81
0.06,-0.72,0.42,-34.96,28.08,0.18
0.06,-0.75,0.46,-39.82,3.82,2.98
0.26,-0.82,0.66,-34.79,-18.06,1.94
0.32,-0.83,0.72,-30.98,-20.21,-3.33
0.35,-0.84,0.73,-29.24,-15.91,-8.03
0.35,-0.83,0.72,-30.92,-0.76,-10.32
0.31,-0.84,0.71,-32.11,19.53,-11.07
0.25,-0.84,0.66,-35.04,42.61,-10.17
0.13,-0.82,0.65,-34.63,52.67,-8.72
0.08,-0.82,0.56,-34.52,50.5,-3.91
0.08,-0.81,0.53,-36.87,38.06,-1.68
0.13,-0.82,0.62,-36.12,-18.95,-10.72
0.16,-0.8,0.66,-35.53,-35.04,-10.44
0.17,-0.84,0.75,-29.66,-33.57,-11.33
0.23,-0.84,0.77,-28.47,-29.77,-11.42
0.24,-0.84,0.77,-29.73,-10.72,-11.1
0.23,-0.86,0.76,-28.55,9.85,-9.31
0.21,-0.87,0.72,-29.21,29.74,-6.85
0.18,-0.88,0.7,-29.11,40.03,-6.37
0.13,-0.88,0.7,-27.76,44.53,-4.47
0.11,-0.84,0.57,-27.18,43.44,-1.22
0.1,-0.84,0.54,-27.47,30.82,-2.09
0.09,-0.84,0.52,-29.71,20.69,-1.05
0.14,-0.87,0.55,-33.8,25.6,2.08
0.17,-0.89,0.58,-36.79,43.85,6.26
0.21,-0.91,0.64,-35.83,64.41,8.69
0.24,-0.93,0.65,-30.87,82.9,8.38
0.25,-0.92,0.6,-28.06,92.23,5.31
0.21,-0.92,0.57,-27.44,94.84,1.11
0.15,-0.91,0.6,-24.5,91.28,-3.98
-0.06,-0.89,0.66,-13.83,65.15,-11.63
-0.17,-0.9,0.69,-12.92,33.91,-11.65
-0.18,-0.91,0.82,-8.81,3.8,-9.05
-0.17,-0.93,0.88,-3.5,-1.82,-4.56
-0.15,-0.91,0.93,3.45,4.4,0.79
-0.16,-0.92,0.91,14.85,0.64,5.77
-0.11,-0.92,0.83,28.02,-4.09,9.65
-0.08,-0.9,0.74,37.04,-10.46,11.98
-0.04,-0.87,0.65,43.04,-19.22,13.6
0.01,-0.84,0.57,42.09,-21.8,14.56
0.09,-0.79,0.45,28.73,-23.83,11.01
0.1,-0.79,0.44,20.78,-24.85,8.52
0.12,-0.77,0.44,13.51,-28.84,5.76
0.13,-0.76,0.46,7.42,-31.8,3.28
0.14,-0.76,0.51,2.98,-33.51,0.32
0.12,-0.75,0.6,2.64,-37.08,-2.14
0.11,-0.75,0.63,1.77,-37.28,-2.82
0.14,-0.76,0.74,3.22,-40.73,-5.83
0.16,-0.79,0.82,5.63,-41.04,-10.29
0.12,-0.82,0.94,10.46,-35.6,-12.34
0.08,-0.88,1.02,18.53,-33.31,-5.74
0.13,-0.89,1.07,19.88,-19.8,-2.6
0.13,-0.91,1.08,23.73,-3.95,-0.43
0.12,-0.9,1.03,27.48,11.15,1.15
0.1,-0.89,0.97,31.86,14.5,0.7
0.05,-0.89,0.9,34.95,5.65,0.98
0.02,-0.87,0.85,36.38,-2.96,2.4
-0.02,-0.85,0.82,36.9,-17.22,5.54
0.0,-0.86,0.8,36.61,-29.83,10.49
0.07,-0.87,0.79,35.76,-29.82,12.95
0.11,-0.88,0.81,36.08,-27.01,13.86
0.16,-0.84,0.82,39.04,-20.98,12.03
0.15,-0.84,0.82,40.82,-23.66,12.18
0.16,-0.83,0.84,43.59,-29.31,13.47
0.2,-0.83,0.86,46.23,-32.31,14.72
0.27,-0.82,0.86,49.16,-31.62,12.7
0.3,-0.82,0.84,50.96,-28.82,8.35
0.31,-0.81,0.81,50.98,-25.16,4.89
0.31,-0.79,0.78,51.25,-16.23,0.89
0.28,-0.79,0.75,48.55,-9.59,-3.73
0.2,-0.79,0.8,48.26,-3.08,-6.52
0.07,-0.8,0.84,51.66,-0.34,-0.41
0.08,-0.8,0.88,53.51,-5.8,1.33
0.08,-0.81,0.92,57.63,-14.31,3.18
0.1,-0.81,0.98,63.27,-16.18,6.35
0.16,-0.8,0.97,68.75,-11.22,7.24
0.22,-0.79,0.94,71.01,-9.56,4.35
0.25,-0.78,0.93,72.53,-11.33,-2.12
0.21,-0.78,0.92,75.05,-12.02,-7.8
0.14,-0.78,0.88,76.02,-1.86,-9.39
0.04,-0.75,0.85,74.95,0.02,-6.21
0.02,-0.75,0.83,74.18,-2.08,-1.42
0.06,-0.75,0.87,76.76,-5.68,8.27
0.11,-0.75,0.93,79.05,-10.35,10.72
0.17,-0.74,0.93,83.37,-10.26,9.89
0.21,-0.7,0.88,85.48,-10.08,7.47
0.25,-0.66,0.82,82.66,-13.73,3.37
0.26,-0.63,0.82,79.65,-13.51,-1.28
0.21,-0.61,0.85,74.08,-11.34,-3.66
0.25,-0.6,0.8,69.82,-0.66,-6.35
0.2,-0.58,0.79,66.17,9.45,-7.62
0.13,-0.56,0.81,62.92,12.29,-6.75
0.1,-0.52,0.87,55.13,3.51,-1.77
0.13,-0.54,0.95,56.14,-7.59,-0.96
0.16,-0.56,1.02,57.76,-14.89,-0.26
0.22,-0.58,1.05,59.89,-14.79,-1.59
0.23,-0.58,1.04,63.13,-5.82,-4.27
0.21,-0.58,0.99,65.27,5.63,-6.21
0.17,-0.57,0.92,64.98,14.0,-6.98
0.13,-0.55,0.88,65.04,20.56,-6.72
0.11,-0.51,0.82,60.82,28.31,-5.13
0.11,-0.47,0.76,56.99,26.64,-3.07
0.07,-0.49,0.8,51.79,20.49,-0.99
0.05,-0.48,0.86,47.1,6.81,0.2
0.06,-0.46,0.89,46.73,4.05,1.69
0.07,-0.44,0.93,47.22,-1.71,2.03
0.09,-0.42,0.93,48.05,-5.94,3.19
0.14,-0.41,0.94,47.42,-5.4,3.47
0.17,-0.39,0.92,44.27,-3.94,2.02
0.2,-0.39,0.94,44.15,2.99,-1.4
0.17,-0.37,0.93,42.72,8.5,-3.74
0.11,-0.35,0.91,41.28,10.17,-4.2
0.08,-0.35,0.89,39.25,9.07,-3.07
0.08,-0.34,0.94,38.26,3.86,-1.65
0.09,-0.35,0.97,40.09,0.18,-0.76
0.12,-0.33,0.98,41.6,0.52,-1.05
0.12,-0.32,0.96,40.05,1.5,-1.51
0.1,-0.31,0.97,39.19,2.11,-1.51
0.09,-0.31,0.96,39.13,3.08,-1.71
0.05,-0.29,0.94,36.72,-0.85,0.99
0.07,-0.29,0.96,36.52,-4.78,1.05
0.09,-0.28,0.96,38.89,-3.83,0.35
0.07,-0.27,0.95,38.82,-3.6,1.68
0.1,-0.26,0.92,37.62,-7.73,2.63
0.14,-0.24,0.93,33.47,-9.95,2.52
0.12,-0.24,0.92,31.31,-9.86,1.68
0.12,-0.22,0.89,30.02,-8.61,1.28
0.1,-0.21,0.93,27.94,-18.99,1.89
0.12,-0.2,0.94,26.95,-15.02,2.87
0.13,-0.2,0.95,24.85,-15.94,2.56
0.13,-0.19,0.98,20.67,-20.0,3.54
0.19,-0.19,0.96,18.17,-20.61,1.05
0.2,-0.22,0.97,9.04,-24.18,-0.46
0.2,-0.19,0.95,9.28,-23.86,-0.92
0.18,-0.21,0.95,5.22,-25.25,-0.02
0.21,-0.19,0.97,4.05,-23.59,-3.02
0.2,-0.2,0.96,5.37,-17.37,-5.65
0.16,-0.2,0.98,10.44,-11.33,-6.35
0.16,-0.2,1.0,16.5,0.56,-3.56
0.16,-0.18,0.98,18.31,5.89,-3.24
0.15,-0.18,0.96,18.34,11.36,-2.58
0.16,-0.23,0.92,12.85,14.98,-1.19
0.16,-0.17,0.9,14.76,10.76,-3.19
0.15,-0.14,0.87,13.37,6.82,-5.16
0.15,-0.13,0.86,6.58,-3.48,-2.84
0.16,-0.15,0.82,5.53,-8.98,-6.46
0.16,-0.1,0.81,-1.3,-8.05,-4.12
0.13,-0.11,0.83,-0.5,-15.33,-5.59
0.15,-0.09,0.82,1.28,-16.0,-5.47
0.21,-0.08,0.84,4.35,-2.44,-6.78
0.21,-0.06,0.82,2.66,3.69,-6.95
0.19,-0.07,0.82,-0.5,8.08,-5.4
0.17,-0.09,0.86,-5.07,7.54,-4.38
0.15,-0.11,0.92,-6.73,8.12,-2.82
0.14,-0.12,0.96,-4.41,10.02,-0.79
0.17,-0.13,1.0,-0.63,11.59,-0.69
0.17,-0.13,1.01,2.7,12.0,-1.5
0.14,-0.12,1.0,4.44,11.1,-1.47
0.14,-0.1,0.96,5.42,14.11,-1.16
0.15,-0.09,0.94,3.48,13.85,-1.39
0.17,-0.08,0.9,1.92,7.98,-3.15
0.18,-0.08,0.85,-3.68,4.53,-2.81
0.14,-0.07,0.85,-6.61,1.07,-2.49
0.12,-0.08,0.89,-9.57,1.08,-0.67
0.11,-0.08,0.92,-10.34,-1.48,1.36
0.15,-0.09,0.96,-9.18,-2.99,0.96
0.17,-0.11,1.0,-7.53,-3.94,-0.53
0.19,-0.11,1.02,-5.91,-5.8,-2.05
0.21,-0.11,1.0,-5.66,-1.79,-3.05
0.2,-0.09,0.97,-6.4,4.11,-3.89
0.17,-0.07,0.95,-7.83,6.02,-3.8
0.13,-0.06,0.91,-8.4,6.08,-2.63
0.11,-0.08,0.94,-18.76,-5.4,1.71
0.14,-0.06,0.92,-14.84,-15.94,-0.14
0.2,-0.07,0.93,-12.78,-12.64,-1.91
0.2,-0.08,0.98,-10.93,-19.54,-4.24
0.21,-0.1,0.97,-11.66,-20.7,-5.68
0.23,-0.1,1.01,-11.48,-19.88,-7.08
0.23,-0.1,0.99,-9.8,-10.14,-7.6
0.2,-0.09,0.98,-9.27,-4.82,-7.02
0.17,-0.09,0.97,-10.79,-3.45,-5.65
0.17,-0.12,1.02,-14.49,-7.47,-4.06
0.17,-0.14,1.06,-11.82,-3.86,-3.97
0.15,-0.13,1.06,-9.77,0.4,-3.01
0.16,-0.13,1.03,-8.84,0.52,-2.37
0.14,-0.12,1.02,-9.16,-3.53,-2.43
0.13,-0.12,1.01,-9.44,-7.98,-2.03
