acce_x,acce_y,acce_z,gyro_x,gyro_y,gyro_z
0.19,-0.19,0.84,-35.6,19.62,-9.63
0.12,-0.17,0.94,-32.85,-34.12,-26.29
0.07,-0.18,1.06,-23.63,-71.54,-34.05
0.11,-0.19,1.13,-10.53,-85.66,-34.76
0.16,-0.18,1.12,-4.5,-79.65,-31.34
0.16,-0.17,1.04,-5.8,-64.95,-22.98
0.18,-0.13,0.99,-11.85,-41.02,-11.89
0.2,-0.1,0.91,-16.81,-6.96,0.85
0.23,-0.1,0.85,-21.76,23.36,12.21
0.25,-0.11,0.82,-29.05,26.06,17.56
0.36,-0.13,0.84,-36.81,27.4,13.86
0.19,-0.18,0.98,-38.81,-16.92,-16.0
0.13,-0.22,1.06,-34.32,-31.18,-17.89
0.11,-0.23,1.14,-29.01,-43.45,-16.46
0.16,-0.22,1.14,-25.25,-40.29,-16.2
0.15,-0.24,1.18,-19.86,-8.2,-7.57
0.08,-0.23,1.15,-9.25,9.8,3.5
0.13,-0.22,1.03,-5.91,23.18,15.56
0.24,-0.18,0.96,-10.49,20.58,20.08
0.33,-0.16,0.93,-16.0,20.76,17.6
0.36,-0.14,0.92,-18.21,18.44,9.92
0.37,-0.13,0.92,-19.88,10.64,-1.39
0.35,-0.13,0.9,-22.34,1.34,-13.44
0.21,-0.14,0.94,-33.94,-8.27,-21.3
0.15,-0.15,0.97,-39.73,-0.31,-16.23
0.11,-0.17,1.0,-42.02,9.8,-10.09
0.08,-0.17,1.03,-40.72,13.16,-3.59
0.07,-0.18,1.09,-35.85,6.49,3.62
0.12,-0.17,1.15,-28.18,3.22,7.82
0.19,-0.18,1.17,-22.03,7.04,9.48
0.25,-0.16,1.16,-19.88,9.34,9.28
0.3,-0.18,1.16,-17.63,10.66,6.14
0.29,-0.18,1.13,-14.76,16.99,0.95
0.22,-0.16,1.1,-12.63,12.92,-1.92
0.14,-0.17,1.03,-12.44,9.86,-1.88
0.09,-0.18,1.03,-13.68,-0.58,0.92
0.09,-0.2,1.04,-12.21,5.56,7.79
0.09,-0.2,1.04,-10.61,7.22,11.01
0.12,-0.19,1.06,-7.97,6.35,13.04
0.16,-0.19,1.04,-4.84,0.89,13.83
0.21,-0.17,1.04,-2.81,-4.6,11.98
0.22,-0.16,1.03,0.41,-5.07,10.23
0.21,-0.16,1.01,1.95,-3.5,9.05
0.24,-0.14,0.98,-1.42,-5.1,9.05
0.26,-0.13,0.96,-5.91,-4.73,9.27
0.3,-0.14,0.95,-9.33,-3.13,7.92
0.32,-0.14,0.96,-11.62,1.13,5.45
0.3,-0.14,0.97,-11.94,1.19,3.92
0.31,-0.12,1.0,-10.23,-1.5,2.75
0.35,-0.14,1.0,-9.37,-2.63,0.17
0.36,-0.15,1.03,-9.05,-6.0,-2.78
0.34,-0.16,1.06,-10.2,-4.34,-6.6
0.35,-0.18,1.04,-10.67,-1.21,-6.7
0.39,-0.2,1.03,-13.08,-2.75,-8.73
0.42,-0.2,1.05,-15.34,-3.69,-11.83
0.43,-0.22,1.07,-12.84,3.92,-14.37
0.41,-0.22,1.06,-10.26,9.24,-16.35
0.4,-0.22,1.05,-9.85,9.88,-17.25
0.43,-0.22,1.04,-8.31,8.56,-18.31
0.48,-0.22,1.04,-7.69,8.76,-21.44
0.49,-0.19,1.03,-7.83,9.71,-25.97
0.47,-0.17,0.99,-7.98,14.05,-27.31
0.44,-0.17,0.95,-10.9,14.93,-28.78
0.41,-0.2,1.0,-18.84,11.01,-29.68
0.42,-0.22,1.04,-20.43,15.91,-30.76
0.4,-0.23,1.1,-21.1,14.95,-31.53
0.4,-0.25,1.15,-19.83,22.58,-31.8
0.4,-0.28,1.19,-14.23,36.96,-32.08
0.37,-0.31,1.2,-7.19,44.98,-31.05
0.32,-0.33,1.17,-0.21,43.04,-28.98
0.35,-0.33,1.12,4.92,38.52,-27.73
0.33,-0.31,1.07,9.27,36.9,-27.73
0.34,-0.27,1.01,11.34,37.21,-29.36
0.3,-0.23,0.92,9.88,36.79,-30.89
0.24,-0.21,0.87,5.11,29.76,-30.5
0.23,-0.21,0.88,-4.4,15.1,-31.82
0.24,-0.21,0.93,-7.88,9.62,-33.19
0.23,-0.22,1.01,-8.9,8.61,-32.6
0.22,-0.23,1.04,-6.43,10.56,-30.41
0.29,-0.24,1.08,-3.08,4.82,-32.11
0.4,-0.25,1.08,-2.03,1.19,-38.85
0.48,-0.26,1.1,-3.48,3.94,-48.34
0.48,-0.26,1.12,-5.01,12.29,-57.05
0.43,-0.27,1.12,-4.81,22.87,-62.29
0.36,-0.27,1.08,-2.73,33.91,-64.89
0.26,-0.26,1.0,-2.7,37.88,-64.9
0.2,-0.26,0.94,-5.31,34.08,-62.06
0.21,-0.24,0.93,-7.66,27.34,-59.4
0.28,-0.27,0.94,-9.13,22.12,-59.42
0.34,-0.27,0.96,-10.75,17.08,-62.98
0.41,-0.27,0.98,-12.44,14.32,-68.92
0.43,-0.28,0.99,-12.47,20.63,-76.56
0.37,-0.29,0.96,-12.81,32.6,-82.38
0.27,-0.29,0.9,-15.1,38.44,-83.48
0.25,-0.28,0.86,-19.42,39.19,-84.78
0.18,-0.3,0.88,-24.21,38.99,-85.54
0.14,-0.32,0.89,-28.43,38.23,-83.56
0.12,-0.33,0.91,-32.08,38.52,-81.76
0.13,-0.32,0.94,-32.92,40.09,-80.67
0.15,-0.32,0.93,-30.5,47.18,-78.67
0.22,-0.34,0.93,-29.73,45.6,-86.09
0.25,-0.32,0.93,-30.15,46.34,-93.76
0.21,-0.34,0.91,-31.16,57.83,-100.76
0.08,-0.33,0.86,-33.36,59.83,-102.93
-0.03,-0.35,0.81,-34.7,51.97,-101.42
-0.08,-0.35,0.83,-38.0,41.5,-97.37
-0.09,-0.36,0.89,-41.97,37.94,-91.6
-0.08,-0.39,1.0,-44.82,41.57,-85.01
-0.07,-0.41,1.07,-43.53,48.96,-77.04
-0.09,-0.45,1.15,-33.13,59.3,-68.2
-0.05,-0.45,1.15,-27.33,61.11,-63.71
-0.01,-0.44,1.09,-23.51,66.41,-62.0
0.02,-0.41,0.98,-21.08,71.13,-64.95
-0.02,-0.39,0.89,-21.33,64.63,-67.42
-0.05,-0.38,0.84,-25.19,58.35,-68.02
-0.08,-0.38,0.82,-29.76,52.89,-67.71
-0.09,-0.4,0.8,-30.96,48.96,-69.01
-0.13,-0.4,0.82,-31.04,46.76,-69.57
-0.14,-0.39,0.84,-32.14,40.67,-69.56
-0.18,-0.41,0.95,-27.31,40.09,-61.94
-0.12,-0.41,0.92,-23.21,46.4,-58.95
-0.08,-0.42,0.87,-22.17,43.28,-57.71
-0.04,-0.43,0.86,-24.6,48.44,-53.6
0.04,-0.38,0.77,-30.35,63.59,-56.03
-0.01,-0.37,0.74,-34.47,62.05,-60.75
-0.05,-0.37,0.74,-39.74,58.43,-63.91
-0.09,-0.39,0.75,-44.76,57.54,-64.56
-0.14,-0.44,0.78,-45.42,50.84,-67.59
-0.18,-0.47,0.82,-48.37,37.22,-69.28
-0.19,-0.51,0.91,-52.96,32.06,-61.98
-0.16,-0.48,0.92,-60.0,33.82,-59.63
-0.12,-0.48,0.85,-59.5,35.69,-57.18
-0.11,-0.47,0.8,-57.73,39.83,-55.24
-0.1,-0.47,0.73,-52.75,37.42,-54.43
-0.09,-0.44,0.69,-57.62,35.85,-55.4
-0.06,-0.43,0.66,-62.27,36.72,-55.76
-0.06,-0.41,0.63,-74.38,36.64,-58.4
-0.11,-0.44,0.59,-75.74,32.79,-61.15
-0.15,-0.45,0.61,-76.14,25.62,-66.2
-0.3,-0.55,0.8,-85.19,11.62,-71.8
-0.38,-0.61,0.88,-89.8,3.94,-70.72
-0.44,-0.7,0.97,-84.17,-0.46,-62.08
-0.46,-0.76,1.07,-64.76,6.55,-43.05
-0.36,-0.71,1.05,-50.55,22.95,-21.18
-0.18,-0.57,0.87,-45.82,57.01,-1.95
-0.03,-0.54,0.59,-35.04,71.76,2.09
0.13,-0.42,0.47,-34.7,76.21,-10.35
0.09,-0.43,0.5,-51.82,55.8,-35.27
-0.07,-0.5,0.59,-65.51,33.18,-58.32
-0.33,-0.69,0.86,-66.24,5.04,-70.61
-0.44,-0.81,0.99,-60.46,0.03,-67.51
-0.51,-0.88,1.15,-50.49,-1.27,-50.31
-0.32,-0.9,1.16,-37.48,10.7,-31.04
-0.2,-0.84,1.06,-27.33,33.22,-16.37
-0.1,-0.75,0.92,-19.65,56.34,-8.79
-0.06,-0.7,0.83,-20.82,65.76,-9.95
-0.1,-0.68,0.79,-28.5,64.9,-16.11
-0.17,-0.69,0.8,-35.86,54.18,-22.24
-0.22,-0.7,0.8,-40.06,48.72,-23.02
-0.23,-0.71,0.8,-39.07,25.21,-30.63
-0.26,-0.76,0.79,-40.49,12.69,-30.99
-0.24,-0.77,0.84,-40.58,18.26,-28.14
-0.21,-0.77,0.92,-39.15,28.75,-28.05
-0.22,-0.78,0.96,-34.26,34.23,-26.38
-0.21,-0.77,0.93,-28.27,47.91,-22.4
-0.2,-0.74,0.85,-30.12,60.43,-22.93
-0.29,-0.72,0.79,-32.92,69.39,-22.02
-0.37,-0.71,0.71,-36.31,69.47,-19.39
-0.43,-0.67,0.68,-38.78,52.7,-21.97
-0.53,-0.72,0.66,-46.5,14.55,-29.65
-0.5,-0.72,0.68,-49.25,3.45,-25.98
-0.48,-0.72,0.69,-48.81,9.53,-21.28
-0.52,-0.72,0.71,-46.2,26.02,-10.37
-0.58,-0.67,0.73,-40.27,33.39,4.09
-0.48,-0.64,0.68,-36.56,29.95,8.02
-0.46,-0.7,0.69,-36.49,17.95,5.48
-0.42,-0.71,0.77,-34.81,-6.78,-2.05
-0.35,-0.72,0.8,-34.98,-35.36,-17.47
-0.33,-0.73,0.79,-32.23,-56.92,-29.42
-0.23,-0.74,0.76,-31.1,-72.2,-44.46
-0.28,-0.78,0.83,-30.2,-68.52,-41.02
-0.27,-0.78,0.87,-27.47,-51.31,-31.33
-0.23,-0.78,0.86,-20.56,-27.77,-18.69
-0.26,-0.78,0.83,-17.39,-11.13,-9.33
-0.26,-0.8,0.86,-17.73,-9.01,-3.21
-0.25,-0.82,0.9,-21.33,-8.4,0.23
-0.27,-0.85,0.93,-19.76,-10.63,1.45
-0.28,-0.86,0.97,-11.57,-11.1,3.11
-0.31,-0.85,0.97,-1.08,-3.1,5.5
-0.39,-0.84,0.88,10.44,-3.89,8.44
-0.4,-0.82,0.86,14.67,-13.85,7.66
-0.39,-0.82,0.82,19.44,-18.69,9.16
-0.35,-0.78,0.77,22.63,-17.48,9.11
-0.39,-0.77,0.74,23.5,-25.97,5.62
-0.43,-0.75,0.74,23.45,-41.25,2.93
-0.4,-0.75,0.76,23.02,-48.27,4.18
-0.38,-0.76,0.77,23.4,-46.38,8.08
-0.36,-0.76,0.78,24.9,-39.53,14.95
-0.34,-0.76,0.78,25.4,-30.72,22.84
-0.32,-0.77,0.8,25.6,-23.31,30.87
-0.31,-0.76,0.81,24.03,-19.71,35.76
-0.27,-0.74,0.79,24.43,-26.78,37.47
-0.22,-0.72,0.76,24.82,-26.0,36.99
-0.2,-0.69,0.72,23.65,-24.69,34.38
-0.22,-0.69,0.69,21.54,-32.31,31.5
-0.25,-0.68,0.69,15.56,-39.86,30.38
-0.28,-0.72,0.72,14.55,-44.34,30.05
-0.3,-0.75,0.77,15.16,-51.47,31.85
-0.29,-0.78,0.86,17.44,-56.41,35.3
-0.27,-0.81,0.91,24.15,-53.8,40.2
-0.24,-0.81,0.93,32.93,-48.05,46.43
-0.19,-0.78,0.89,38.49,-43.94,53.13
-0.07,-0.74,0.87,46.66,-38.47,58.11
-0.03,-0.73,0.83,50.46,-31.62,55.65
-0.05,-0.72,0.8,54.09,-31.13,52.89
-0.06,-0.7,0.76,53.39,-33.48,49.76
-0.05,-0.69,0.75,51.65,-34.96,48.96
-0.07,-0.68,0.74,49.16,-34.49,46.05
-0.08,-0.68,0.75,46.47,-33.48,44.09
-0.09,-0.67,0.76,44.72,-35.5,44.44
-0.06,-0.66,0.76,38.03,-35.39,43.92
-0.04,-0.66,0.78,31.42,-40.66,45.16
0.02,-0.68,0.83,38.75,-46.58,43.13
0.07,-0.66,0.9,35.71,-32.29,37.02
0.05,-0.67,0.93,39.74,-23.44,36.72
0.0,-0.66,0.93,44.66,-21.37,36.85
-0.03,-0.64,0.88,44.37,-21.18,36.17
-0.08,-0.63,0.83,43.98,-27.37,39.16
-0.08,-0.59,0.81,41.04,-31.89,44.5
-0.03,-0.57,0.81,37.51,-32.06,48.24
0.02,-0.54,0.79,37.01,-32.58,48.29
0.03,-0.53,0.83,37.31,-35.76,47.88
0.06,-0.54,0.85,38.81,-39.71,45.16
0.12,-0.52,0.88,39.15,-35.44,39.8
0.08,-0.5,0.85,35.89,-27.62,29.73
0.01,-0.51,0.84,32.72,-25.11,30.06
-0.01,-0.49,0.81,27.73,-20.99,33.08
-0.03,-0.46,0.78,21.04,-17.92,36.55
-0.07,-0.44,0.77,14.6,-20.85,39.73
-0.04,-0.43,0.8,10.84,-27.85,41.59
0.01,-0.43,0.84,10.12,-36.26,40.93
0.07,-0.44,0.89,11.45,-37.89,38.52
0.09,-0.45,0.9,12.84,-28.92,36.61
0.09,-0.44,0.89,11.79,-22.6,35.57
0.09,-0.44,0.87,8.69,-17.83,32.9
0.08,-0.43,0.89,7.89,-14.06,27.51
-0.1,-0.47,0.91,12.99,-15.8,25.71
-0.14,-0.46,0.87,13.69,-17.63,30.15
-0.16,-0.45,0.83,11.89,-24.56,35.59
-0.11,-0.43,0.81,8.06,-31.95,40.27
-0.03,-0.43,0.85,6.14,-36.24,41.62
0.05,-0.41,0.86,5.57,-37.45,39.82
0.09,-0.4,0.88,4.82,-37.27,35.34
0.08,-0.41,0.89,4.2,-38.0,32.02
0.09,-0.42,0.95,6.05,-33.6,29.4
0.07,-0.41,0.95,8.78,-26.82,27.3
0.03,-0.4,0.93,10.17,-23.95,26.64
-0.01,-0.4,0.88,8.49,-27.24,28.52
-0.03,-0.41,0.89,-2.03,-36.85,32.26
0.02,-0.42,0.93,-3.37,-40.5,32.9
0.03,-0.43,0.97,-0.52,-43.5,31.5
0.04,-0.44,0.99,3.53,-43.89,29.83
0.02,-0.44,0.98,7.25,-42.75,29.1
0.04,-0.43,0.97,8.99,-41.66,29.3
0.04,-0.43,0.95,9.3,-39.79,28.93
0.05,-0.41,0.95,9.28,-38.76,28.55
0.07,-0.4,0.93,8.06,-38.17,28.05
0.06,-0.39,0.91,4.99,-38.31,26.56
0.03,-0.41,0.94,2.49,-36.82,26.44
-0.03,-0.41,0.95,2.32,-36.38,29.83
-0.03,-0.4,0.95,3.1,-34.47,33.68
0.07,-0.4,0.97,4.85,-36.76,32.66
0.11,-0.41,0.98,6.78,-36.49,29.91
0.12,-0.4,0.97,7.45,-31.28,27.59
0.1,-0.38,0.95,6.27,-26.47,27.8
0.05,-0.39,0.96,3.57,-24.23,28.89
0.04,-0.4,0.97,2.02,-24.49,30.35
0.04,-0.4,0.99,2.61,-23.3,31.8
0.07,-0.39,0.99,3.77,-20.35,33.66
0.08,-0.39,0.97,3.48,-21.4,33.59
0.1,-0.38,0.96,1.3,-26.37,32.24
0.12,-0.4,0.97,0.6,-28.24,30.67
0.14,-0.4,0.99,2.31,-27.76,28.6
0.12,-0.4,0.98,3.86,-23.97,27.33
0.08,-0.39,0.97,4.15,-22.09,28.2
0.12,-0.37,0.97,2.7,-22.37,29.82
0.14,-0.36,0.96,2.53,-20.29,28.38
0.13,-0.37,0.97,2.06,-21.73,26.44
0.13,-0.38,0.98,0.7,-23.82,24.5
0.1,-0.39,0.98,0.67,-23.77,22.85
0.07,-0.4,0.99,2.53,-22.11,23.85
0.05,-0.4,0.99,4.81,-19.91,25.74
0.05,-0.38,0.98,6.85,-16.87,28.29
0.04,-0.36,0.94,6.66,-14.82,30.27
0.05,-0.36,0.92,4.0,-16.15,32.06
0.08,-0.36,0.93,0.95,-20.75,31.21
0.07,-0.37,0.96,0.82,-25.36,30.64
0.08,-0.38,1.0,2.99,-25.68,31.22
0.09,-0.39,1.02,4.89,-24.78,31.25
0.11,-0.39,1.04,11.33,-23.92,30.81
0.1,-0.37,1.01,14.02,-19.28,31.59
0.13,-0.36,0.96,12.89,-18.08,31.54
0.12,-0.35,0.93,10.58,-18.64,31.48
0.12,-0.35,0.94,9.59,-18.44,32.72
0.12,-0.35,0.91,6.6,-20.58,33.45
0.15,-0.34,0.93,0.84,-26.05,31.92
0.15,-0.35,0.97,-1.31,-30.55,29.94
0.15,-0.37,1.04,2.03,-32.31,28.58
0.16,-0.37,1.06,5.91,-28.26,28.12
0.15,-0.37,1.08,8.35,-24.41,28.99
0.17,-0.36,1.08,11.24,-20.17,29.94
0.19,-0.36,1.04,12.95,-14.12,30.06
0.22,-0.33,0.94,7.82,-12.46,26.12
0.19,-0.33,0.93,4.47,-15.65,22.55
0.15,-0.34,0.95,3.89,-18.18,22.93
0.12,-0.33,0.94,3.59,-16.66,24.81
0.1,-0.33,0.94,1.59,-17.44,26.7
0.11,-0.34,0.96,-0.06,-19.16,27.79
0.11,-0.35,0.97,0.53,-21.02,28.63
0.15,-0.37,1.0,1.48,-22.79,28.32
0.17,-0.37,1.03,4.03,-23.22,26.9
0.19,-0.37,1.05,7.53,-21.1,25.85
0.16,-0.36,1.02,9.91,-17.92,24.6
0.12,-0.35,0.98,9.45,-13.4,26.2
0.1,-0.33,0.94,6.96,-14.15,29.27
0.16,-0.31,0.98,3.4,-17.98,32.18
0.16,-0.33,1.01,5.6,-17.3,32.0
0.18,-0.32,1.02,7.54,-15.16,32.7
0.22,-0.32,1.01,8.02,-13.85,31.79
0.24,-0.33,1.0,7.94,-13.21,30.2
0.22,-0.34,1.0,8.55,-14.7,28.34
0.21,-0.33,0.97,8.98,-14.99,26.53
0.19,-0.31,0.94,6.92,-17.62,26.46
0.21,-0.3,0.91,3.88,-20.63,26.02
0.19,-0.31,0.94,1.92,-22.5,24.73
0.21,-0.32,0.96,1.74,-21.66,24.44
0.2,-0.31,1.0,1.8,-17.62,24.09
0.19,-0.32,1.02,2.98,-14.0,24.49
0.18,-0.31,1.0,3.25,-11.21,25.45
0.16,-0.32,0.98,4.49,-10.43,25.63
0.18,-0.32,0.99,5.08,-10.32,25.89
0.18,-0.33,1.0,6.66,-10.72,26.15
0.18,-0.32,1.0,8.21,-9.15,26.27
0.17,-0.3,0.97,8.63,-9.36,25.62
0.16,-0.3,0.93,7.01,-11.05,24.87
0.19,-0.29,0.92,3.71,-13.63,22.73
0.19,-0.28,0.91,1.62,-15.62,19.88
0.14,-0.28,0.91,-0.02,-17.19,19.95
0.13,-0.28,0.93,-1.68,-14.18,22.87
0.13,-0.28,0.95,-3.3,-10.73,25.45
0.19,-0.29,0.98,-3.19,-7.24,26.2
0.22,-0.31,0.99,-1.63,-6.06,24.73
0.22,-0.31,0.95,-1.79,-6.34,14.73
0.15,-0.31,0.94,-3.88,-9.59,12.46
0.07,-0.31,0.95,-4.96,-12.92,13.73
0.04,-0.31,0.95,-5.25,-13.37,16.89
0.03,-0.31,0.98,-5.79,-16.03,22.37
0.05,-0.31,1.01,-5.44,-16.76,29.19
0.13,-0.31,1.04,-4.75,-17.56,33.62
0.21,-0.3,1.09,-1.97,-20.38,34.66
0.28,-0.31,1.12,3.04,-17.07,33.76
0.34,-0.32,1.11,6.66,-11.34,31.02
0.4,-0.32,1.06,3.82,-7.3,24.6
0.36,-0.31,1.02,-1.45,0.17,16.96
0.23,-0.3,0.99,-1.15,6.23,14.6
0.05,-0.29,0.89,-6.52,12.64,22.95
0.01,-0.29,0.86,-9.28,8.24,27.83
0.02,-0.29,0.86,-14.56,-8.24,33.02
0.13,-0.3,0.89,-16.56,-20.93,35.25
0.24,-0.29,0.94,-18.96,-35.28,33.31
0.35,-0.3,0.97,-19.79,-31.13,24.79
0.34,-0.3,1.09,-13.08,-19.94,16.87
0.29,-0.31,1.13,-5.62,-6.15,15.37
0.24,-0.34,1.1,0.32,4.73,16.4
0.24,-0.33,1.06,0.43,9.42,18.14
0.25,-0.32,1.05,-0.17,9.25,18.99
0.25,-0.32,1.06,-0.06,6.44,19.88
0.28,-0.32,1.05,0.14,2.66,19.04
0.3,-0.31,1.03,-0.26,3.07,16.64
0.26,-0.3,1.03,2.96,12.85,9.74
0.21,-0.3,0.98,2.98,11.19,10.14
0.19,-0.25,1.0,-3.83,2.84,15.34
0.23,-0.31,0.95,0.96,6.38,12.35
0.22,-0.3,0.99,-0.05,5.4,12.99
0.24,-0.3,0.97,-1.53,-6.56,14.41
0.31,-0.3,0.99,-3.33,-3.4,15.16
0.37,-0.3,1.0,-1.42,2.15,12.43
0.38,-0.29,0.99,-1.63,9.19,7.94
0.33,-0.29,0.96,-2.92,12.12,4.11
0.32,-0.28,0.93,-4.6,11.56,1.39
0.28,-0.28,0.9,-6.24,9.37,-1.01
0.27,-0.28,0.89,-9.21,7.45,-2.43
0.26,-0.28,0.92,-13.36,5.53,-3.54
0.25,-0.31,0.95,-14.76,12.9,-3.48
0.18,-0.29,0.97,-17.66,2.34,-3.86
0.19,-0.31,1.02,-16.41,-4.75,-5.1
0.17,-0.33,1.03,-14.0,-7.5,-4.43
0.18,-0.33,1.06,-11.82,-8.03,-3.57
0.2,-0.34,1.1,-9.08,-8.14,-4.37
0.23,-0.34,1.09,-6.61,-3.51,-5.45
